f [Hz]	U [dB]
100,0;53,447518819489204
200,0;57,21011020225676
300,0;57,137107853361755
400,0;62,65104435844457
500,0;64,50994652585177
600,0;66,12880629820373
700,0;67,53896578245255
800,0;68,78938463589986
900,0;69,90878804411987
1000,0;70,94009647819175
2000,0;78,45410110455485
3000,0;83,42292534412435
4000,0;87,08906207705584
5000,0;89,89714527707086
6000,0;92,09345765296379
7000,0;93,83011672166937
8000,0;95,22132231800819
