f [Hz]	U [dB]
100,0;87,05846518933534
200,0;86,7074303546591
300,0;87,62030947094667
400,0;88,08758994316881
500,0;88,47386277621196
600,0;88,6051417314415
700,0;89,08140572809485
800,0;89,18412311333299
900,0;89,32613123592918
1000,0;88,6292294677852
2000,0;89,80502136234799
3000,0;90,30809439122854
4000,0;90,68869285968667
5000,0;90,74954122674194
6000,0;90,65663560687977
7000,0;90,69072778925087
8000,0;90,75124417409369
