f [MHz]	U [dBuV]
1000,0	91,8952350616455
2000,0	93,5239973068237
3000,0	93,3143110275269
4000,0	93,3439750671387
5000,0	93,0150480270386
6000,0	93,4144983291626
7000,0	93,4293556213379
8000,0	93,4196910858154
9000,0	93,3081817626953
10000,0	92,8096027374268
11000,0	92,246241569519
12000,0	92,7755146026611
13000,0	93,1668262481689
14000,0	92,1936407089233
15000,0	91,2561016082764
16000,0	91,2183265686035
17000,0	91,2332429885864
18000,0	91,6595268249512
