f [Hz]	U [dB]
100,0;93,98727595531682
200,0;102,78086001970019
300,0;107,02456880337742
400,0;109,37693838649255
500,0;111,01033989024565
600,0;112,23848078656306
700,0;112,84103281350498
800,0;113,69104933017114
900,0;113,888131372309
1000,0;114,22309678437726
2000,0;116,21425674574846
3000,0;116,81508808215035
4000,0;117,19303576230077
5000,0;117,46783062160924
6000,0;117,61313334691876
7000,0;117,74007201231585
8000,0;117,84376459182567
