f [MHz]	U [dBuV]
1000,0	91,8787460327148
2000,0	93,5171585083008
3000,0	93,3078689575195
4000,0	93,3373670578003
5000,0	93,4166564941406
6000,0	93,4146661758423
7000,0	93,4245462417603
8000,0	93,4179372787476
9000,0	92,809515953064
10000,0	92,8059091567993
11000,0	92,2214641571045
12000,0	92,7759265899658
13000,0	93,1438074111938
14000,0	92,2168521881104
15000,0	91,1300849914551
16000,0	91,0906143188477
17000,0	91,2238264083862
18000,0	91,673228263855
